Folder: eds-sem-bulk-corrections/data/exports (part 2)

File: GaSb_15kV_400pA.emsa
#FORMAT      : EMSA/MAS Spectral Data File
#VERSION     : 1.0
#TITLE       : GaSb_15kV_400pA_processTime6
#DATE        : 08-MAR-2023
#TIME        : 15:39
#OWNER       :
#NPOINTS     : 2048.0
#NCOLUMNS    : 1.0
#XUNITS      : keV
#YUNITS      : counts
#DATATYPE    : XY
#XPERCHAN    : 0.01
#OFFSET      : -0.2
#SIGNALTYPE  : EDS
#CHOFFSET    : 20.0
#LIVETIME    : 57.511
#REALTIME    : 252.662
#BEAMKV      : 15.0
#MAGCAM      : 4894.0
#XTILTSTGE   : 0.0
#AZIMANGLE   : 0.0
#ELEVANGLE   : 35.0
#XPOSITION mm: -7.7878
#YPOSITION mm: 1.3232
#ZPOSITION mm: 10.0002
##OXINSTPT   : 6
##OXINSTSTROB: 33.23
##OXINSTNDET : 1
##OXINSTELEMS: 31,51,6,8,14
##OXINSTLABEL: 31, 9.252, Ga
##OXINSTLABEL: 31, 10.264, Ga
##OXINSTLABEL: 31, 1.098, Ga
##OXINSTLABEL: 31, 0.984, Ga
##OXINSTLABEL: 31, 0.957, Ga
##OXINSTLABEL: 51, 3.605, Sb
##OXINSTLABEL: 51, 3.844, Sb
##OXINSTLABEL: 51, 4.101, Sb
##OXINSTLABEL: 51, 3.437, Sb
##OXINSTLABEL: 51, 4.348, Sb
##OXINSTLABEL: 51, 4.600, Sb
##OXINSTLABEL: 51, 3.189, Sb
##OXINSTLABEL: 51, 0.429, Sb
##OXINSTLABEL: 6, 0.277, C
##OXINSTLABEL: 8, 0.525, O
##OXINSTLABEL: 14, 1.740, Si
#SPECTRUM    : Spectral Data Starts Here
-0.20000, 0.0
-0.13000, 0.0
-0.06000, 24.0
0.01000, 4197.0
0.08000, 254.0
0.15000, 832.0
0.22000, 1550.0
0.29000, 2616.0
0.36000, 1555.0
0.43000, 6819.0
0.50000, 3665.0
0.57000, 1553.0
0.64000, 1400.0
0.71000, 2049.0
0.78000, 2277.0
0.85000, 2047.0
0.92000, 2748.0
0.99000, 4045.0
1.06000, 14613.0
1.13000, 35090.0
1.20000, 3009.0
1.27000, 1990.0
1.34000, 1994.0
1.41000, 1997.0
1.48000, 2174.0
1.55000, 2177.0
1.62000, 2207.0
1.69000, 2364.0
1.76000, 2759.0
1.83000, 2662.0
1.90000, 2479.0
1.97000, 2215.0
2.04000, 2341.0
2.11000, 2496.0
2.18000, 2478.0
2.25000, 2364.0
2.32000, 2249.0
2.39000, 2308.0
2.46000, 2241.0
2.53000, 2216.0
2.60000, 2171.0
2.67000, 2279.0
2.74000, 2204.0
2.81000, 2110.0
2.88000, 2072.0
2.95000, 2014.0
3.02000, 2037.0
3.09000, 2060.0
3.16000, 2901.0
3.23000, 2964.0
3.30000, 2010.0
3.37000, 2090.0
3.44000, 2489.0
3.51000, 4764.0
3.58000, 28711.0
3.65000, 23961.0
3.72000, 3504.0
3.79000, 7745.0
3.86000, 17469.0
3.93000, 8683.0
4.00000, 3495.0
4.07000, 4812.0
4.14000, 4982.0
4.21000, 1874.0
4.28000, 1880.0
4.35000, 2907.0
4.42000, 1890.0
4.49000, 1337.0
4.56000, 1780.0
4.63000, 1847.0
4.70000, 1417.0
4.77000, 1217.0
4.84000, 1097.0
4.91000, 1107.0
4.98000, 1152.0
5.05000, 1091.0
5.12000, 994.0
5.19000, 1029.0
5.26000, 1043.0
5.33000, 994.0
5.40000, 1021.0
5.47000, 966.0
5.54000, 945.0
5.61000, 937.0
5.68000, 888.0
5.75000, 950.0
5.82000, 899.0
5.89000, 864.0
5.96000, 875.0
6.03000, 885.0
6.10000, 854.0
6.17000, 847.0
6.24000, 811.0
6.31000, 838.0
6.38000, 834.0
6.45000, 831.0
6.52000, 786.0
6.59000, 787.0
6.66000, 747.0
6.73000, 753.0
6.80000, 778.0
6.87000, 722.0
6.94000, 705.0
7.01000, 737.0
7.08000, 696.0
7.15000, 748.0
7.22000, 750.0
7.29000, 699.0
7.36000, 698.0
7.43000, 718.0
7.50000, 737.0
7.57000, 646.0
7.64000, 635.0
7.71000, 655.0
7.78000, 638.0
7.85000, 587.0
7.92000, 595.0
7.99000, 584.0
8.06000, 579.0
8.13000, 600.0
8.20000, 555.0
8.27000, 510.0
8.34000, 515.0
8.41000, 530.0
8.48000, 535.0
8.55000, 504.0
8.62000, 482.0
8.69000, 482.0
8.76000, 464.0
8.83000, 494.0
8.90000, 458.0
8.97000, 460.0
9.04000, 523.0
9.11000, 922.0
9.18000, 2574.0
9.25000, 3582.0
9.32000, 1906.0
9.39000, 628.0
9.46000, 425.0
9.53000, 412.0
9.60000, 409.0
9.67000, 378.0
9.74000, 396.0
9.81000, 379.0
9.88000, 366.0
9.95000, 370.0
10.02000, 350.0
10.09000, 365.0
10.16000, 507.0
10.23000, 715.0
10.30000, 659.0
10.37000, 421.0
10.44000, 321.0
10.51000, 293.0
10.58000, 287.0
10.65000, 278.0
10.72000, 287.0
10.79000, 277.0
10.86000, 274.0
10.93000, 278.0
11.00000, 256.0
11.07000, 256.0
11.14000, 248.0
11.21000, 238.0
11.28000, 259.0
11.35000, 243.0
11.42000, 240.0
11.49000, 224.0
11.56000, 212.0
11.63000, 211.0
11.70000, 181.0
11.77000, 193.0
11.84000, 202.0
11.91000, 179.0
11.98000, 171.0
12.05000, 181.0
12.12000, 174.0
12.19000, 164.0
12.26000, 167.0
12.33000, 165.0
12.40000, 172.0
12.47000, 162.0
12.54000, 144.0
12.61000, 141.0
12.68000, 139.0
12.75000, 131.0
12.82000, 125.0
12.89000, 121.0
12.96000, 119.0
13.03000, 124.0
13.10000, 124.0
13.17000, 120.0
13.24000, 106.0
13.31000, 100.0
13.38000, 88.0
13.45000, 99.0
13.52000, 84.0
13.59000, 83.0
13.66000, 82.0
13.73000, 74.0
13.80000, 72.0
13.87000, 70.0
13.94000, 64.0
14.01000, 62.0
14.08000, 55.0
14.15000, 55.0
14.22000, 49.0
14.29000, 41.0
14.36000, 40.0
14.43000, 37.0
14.50000, 38.0
14.57000, 31.0
14.64000, 25.0
14.71000, 22.0
14.78000, 23.0
14.85000, 18.0
14.92000, 15.0
14.99000, 6.0
15.06000, 8.0
15.13000, 6.0
15.20000, 10.0
15.27000, 11.0
15.34000, 10.0
15.41000, 7.0
15.48000, 8.0
15.55000, 6.0
15.62000, 6.0
15.69000, 9.0
15.76000, 8.0
15.83000, 7.0
15.90000, 6.0
15.97000, 3.0
16.04000, 5.0
16.11000, 4.0
16.18000, 4.0
16.25000, 4.0
16.32000, 4.0
16.39000, 5.0
16.46000, 5.0
16.53000, 3.0
16.60000, 5.0
16.67000, 5.0
16.74000, 5.0
16.81000, 6.0
16.88000, 4.0
16.95000, 6.0
17.02000, 4.0
17.09000, 3.0
17.16000, 3.0
17.23000, 5.0
17.30000, 4.0
17.37000, 3.0
17.44000, 5.0
17.51000, 4.0
17.58000, 3.0
17.65000, 1.0
17.72000, 2.0
17.79000, 2.0
17.86000, 4.0
17.93000, 4.0
18.00000, 3.0
18.07000, 2.0
18.14000, 3.0
18.21000, 3.0
18.28000, 3.0
18.35000, 1.0
18.42000, 2.0
18.49000, 4.0
18.56000, 2.0
18.63000, 2.0
18.70000, 2.0
18.77000, 2.0
18.84000, 1.0
18.91000, 2.0
18.98000, 1.0
19.05000, 0.0
19.12000, 0.0
19.19000, 3.0
19.26000, 1.0
19.33000, 2.0
19.40000, 1.0
19.47000, 0.0
19.54000, 1.0
19.61000, 3.0
19.68000, 2.0
19.75000, 1.0
19.82000, 0.0
19.89000, 2.0
19.96000, 0.0
20.03000, 1.0
20.10000, 1.0
20.17000, 0.0
20.24000, 0.0
20.27000, 1.0
#ENDOFDATA   :

File: GaSb_30kV_50pA.emsa
#FORMAT      : EMSA/MAS Spectral Data File
#VERSION     : 1.0
#TITLE       : GaSb_30kV_50pA
#DATE        : 08-MAR-2023
#TIME        : 14:39
#OWNER       :
#NPOINTS     : 2048.0
#NCOLUMNS    : 1.0
#XUNITS      : keV
#YUNITS      : counts
#DATATYPE    : XY
#XPERCHAN    : 0.01
#OFFSET      : -0.2
#SIGNALTYPE  : EDS
#CHOFFSET    : 20.0
#LIVETIME    : 120.0
#REALTIME    : 212.822
#BEAMKV      : 30.0
#MAGCAM      : 4894.0
#XTILTSTGE   : 0.0
#AZIMANGLE   : 0.0
#ELEVANGLE   : 35.0
#XPOSITION mm: -8.1703
#YPOSITION mm: 1.2743
#ZPOSITION mm: 10.0002
##OXINSTPT   : 6
##OXINSTSTROB: 32.15
##OXINSTNDET : 1
##OXINSTELEMS: 6,8,14,31,51
##OXINSTLABEL: 6, 0.277, C
##OXINSTLABEL: 8, 0.525, O
##OXINSTLABEL: 14, 1.740, Si
##OXINSTLABEL: 31, 9.252, Ga
##OXINSTLABEL: 31, 10.264, Ga
##OXINSTLABEL: 31, 1.098, Ga
##OXINSTLABEL: 31, 0.984, Ga
##OXINSTLABEL: 31, 0.957, Ga
##OXINSTLABEL: 51, 3.605, Sb
##OXINSTLABEL: 51, 3.844, Sb
##OXINSTLABEL: 51, 4.101, Sb
##OXINSTLABEL: 51, 3.437, Sb
##OXINSTLABEL: 51, 4.348, Sb
##OXINSTLABEL: 51, 4.600, Sb
##OXINSTLABEL: 51, 3.189, Sb
##OXINSTLABEL: 51, 0.429, Sb
#SPECTRUM    : Spectral Data Starts Here
-0.20000, 0.0
-0.13000, 0.0
-0.06000, 18.0
0.01000, 10145.0
0.08000, 119.0
0.15000, 249.0
0.22000, 449.0
0.29000, 1081.0
0.36000, 363.0
0.43000, 1652.0
0.50000, 934.0
0.57000, 390.0
0.64000, 347.0
0.71000, 509.0
0.78000, 556.0
0.85000, 549.0
0.92000, 713.0
0.99000, 1088.0
1.06000, 4020.0
1.13000, 9592.0
1.20000, 767.0
1.27000, 511.0
1.34000, 539.0
1.41000, 559.0
1.48000, 678.0
1.55000, 672.0
1.62000, 712.0
1.69000, 917.0
1.76000, 1153.0
1.83000, 1056.0
1.90000, 1032.0
1.97000, 875.0
2.04000, 949.0
2.11000, 1117.0
2.18000, 1041.0
2.25000, 1043.0
2.32000, 1046.0
2.39000, 1106.0
2.46000, 1118.0
2.53000, 1110.0
2.60000, 1146.0
2.67000, 1180.0
2.74000, 1153.0
2.81000, 1161.0
2.88000, 1218.0
2.95000, 1201.0
3.02000, 1212.0
3.09000, 1247.0
3.16000, 2005.0
3.23000, 2019.0
3.30000, 1272.0
3.37000, 1387.0
3.44000, 1820.0
3.51000, 4055.0
3.58000, 27028.0
3.65000, 22365.0
3.72000, 2821.0
3.79000, 7308.0
3.86000, 17425.0
3.93000, 8483.0
4.00000, 3270.0
4.07000, 4531.0
4.14000, 4510.0
4.21000, 1308.0
4.28000, 1301.0
4.35000, 2333.0
4.42000, 1309.0
4.49000, 801.0
4.56000, 1296.0
4.63000, 1304.0
4.70000, 835.0
4.77000, 700.0
4.84000, 674.0
4.91000, 696.0
4.98000, 653.0
5.05000, 636.0
5.12000, 664.0
5.19000, 688.0
5.26000, 688.0
5.33000, 688.0
5.40000, 682.0
5.47000, 687.0
5.54000, 674.0
5.61000, 641.0
5.68000, 632.0
5.75000, 693.0
5.82000, 682.0
5.89000, 674.0
5.96000, 647.0
6.03000, 675.0
6.10000, 669.0
6.17000, 642.0
6.24000, 691.0
6.31000, 653.0
6.38000, 686.0
6.45000, 650.0
6.52000, 629.0
6.59000, 645.0
6.66000, 634.0
6.73000, 643.0
6.80000, 671.0
6.87000, 607.0
6.94000, 588.0
7.01000, 624.0
7.08000, 612.0
7.15000, 624.0
7.22000, 613.0
7.29000, 646.0
7.36000, 630.0
7.43000, 645.0
7.50000, 676.0
7.57000, 567.0
7.64000, 589.0
7.71000, 583.0
7.78000, 612.0
7.85000, 605.0
7.92000, 537.0
7.99000, 565.0
8.06000, 568.0
8.13000, 574.0
8.20000, 543.0
8.27000, 551.0
8.34000, 529.0
8.41000, 539.0
8.48000, 530.0
8.55000, 542.0
8.62000, 525.0
8.69000, 525.0
8.76000, 509.0
8.83000, 522.0
8.90000, 536.0
8.97000, 542.0
9.04000, 656.0
9.11000, 2273.0
9.18000, 8166.0
9.25000, 11724.0
9.32000, 6021.0
9.39000, 1338.0
9.46000, 518.0
9.53000, 462.0
9.60000, 483.0
9.67000, 446.0
9.74000, 473.0
9.81000, 447.0
9.88000, 440.0
9.95000, 462.0
10.02000, 467.0
10.09000, 553.0
10.16000, 1060.0
10.23000, 1948.0
10.30000, 1712.0
10.37000, 826.0
10.44000, 475.0
10.51000, 388.0
10.58000, 395.0
10.65000, 375.0
10.72000, 362.0
10.79000, 369.0
10.86000, 365.0
10.93000, 333.0
11.00000, 353.0
11.07000, 362.0
11.14000, 360.0
11.21000, 354.0
11.28000, 322.0
11.35000, 339.0
11.42000, 341.0
11.49000, 340.0
11.56000, 318.0
11.63000, 321.0
11.70000, 310.0
11.77000, 309.0
11.84000, 313.0
11.91000, 296.0
11.98000, 301.0
12.05000, 313.0
12.12000, 287.0
12.19000, 310.0
12.26000, 299.0
12.33000, 296.0
12.40000, 300.0
12.47000, 278.0
12.54000, 259.0
12.61000, 286.0
12.68000, 287.0
12.75000, 291.0
12.82000, 278.0
12.89000, 303.0
12.96000, 289.0
13.03000, 272.0
13.10000, 267.0
13.17000, 253.0
13.24000, 248.0
13.31000, 251.0
13.38000, 255.0
13.45000, 253.0
13.52000, 256.0
13.59000, 215.0
13.66000, 220.0
13.73000, 207.0
13.80000, 224.0
13.87000, 202.0
13.94000, 240.0
14.01000, 210.0
14.08000, 221.0
14.15000, 199.0
14.22000, 186.0
14.29000, 197.0
14.36000, 189.0
14.43000, 187.0
14.50000, 178.0
14.57000, 186.0
14.64000, 185.0
14.71000, 172.0
14.78000, 160.0
14.85000, 173.0
14.92000, 183.0
14.99000, 157.0
15.06000, 165.0
15.13000, 172.0
15.20000, 167.0
15.27000, 166.0
15.34000, 147.0
15.41000, 158.0
15.48000, 144.0
15.55000, 163.0
15.62000, 144.0
15.69000, 139.0
15.76000, 161.0
15.83000, 135.0
15.90000, 139.0
15.97000, 133.0
16.04000, 132.0
16.11000, 142.0
16.18000, 136.0
16.25000, 127.0
16.32000, 134.0
16.39000, 133.0
16.46000, 124.0
16.53000, 134.0
16.60000, 126.0
16.67000, 130.0
16.74000, 107.0
16.81000, 109.0
16.88000, 116.0
16.95000, 109.0
17.02000, 123.0
17.09000, 93.0
17.16000, 105.0
17.23000, 93.0
17.30000, 121.0
17.37000, 106.0
17.44000, 101.0
17.51000, 94.0
17.58000, 100.0
17.65000, 92.0
17.72000, 94.0
17.79000, 87.0
17.86000, 93.0
17.93000, 88.0
18.00000, 98.0
18.07000, 95.0
18.14000, 87.0
18.21000, 84.0
18.28000, 83.0
18.35000, 86.0
18.42000, 91.0
18.49000, 89.0
18.56000, 80.0
18.63000, 76.0
18.70000, 74.0
18.77000, 72.0
18.84000, 79.0
18.91000, 71.0
18.98000, 71.0
19.05000, 55.0
19.12000, 66.0
19.19000, 57.0
19.26000, 63.0
19.33000, 69.0
19.40000, 59.0
19.47000, 62.0
19.54000, 56.0
19.61000, 64.0
19.68000, 55.0
19.75000, 53.0
19.82000, 47.0
19.89000, 52.0
19.96000, 58.0
20.03000, 56.0
20.10000, 49.0
20.17000, 46.0
20.24000, 49.0
20.27000, 49.0
#ENDOFDATA   :

File: GaSb_30kV_50pA_processTime1.emsa
#FORMAT      : EMSA/MAS Spectral Data File
#VERSION     : 1.0
#TITLE       : GaSb_30kV_50pA_processTime1
#DATE        : 08-MAR-2023
#TIME        : 15:06
#OWNER       :
#NPOINTS     : 2048.0
#NCOLUMNS    : 1.0
#XUNITS      : keV
#YUNITS      : counts
#DATATYPE    : XY
#XPERCHAN    : 0.01
#OFFSET      : -0.2
#SIGNALTYPE  : EDS
#CHOFFSET    : 20.0
#LIVETIME    : 120.0
#REALTIME    : 125.45
#BEAMKV      : 30.0
#MAGCAM      : 4894.0
#XTILTSTGE   : 0.0
#AZIMANGLE   : 0.0
#ELEVANGLE   : 35.0
#XPOSITION mm: -8.1703
#YPOSITION mm: 1.2743
#ZPOSITION mm: 10.0002
##OXINSTPT   : 1
##OXINSTSTROB: 96.59
##OXINSTNDET : 1
##OXINSTELEMS: 25,26,27,28,29,13,6,8
##OXINSTLABEL: 25, 5.899, Mn
##OXINSTLABEL: 25, 6.490, Mn
##OXINSTLABEL: 25, 0.636, Mn
##OXINSTLABEL: 25, 0.556, Mn
##OXINSTLABEL: 26, 6.404, Fe
##OXINSTLABEL: 26, 7.058, Fe
##OXINSTLABEL: 26, 0.703, Fe
##OXINSTLABEL: 26, 0.615, Fe
##OXINSTLABEL: 27, 6.930, Co
##OXINSTLABEL: 27, 7.650, Co
##OXINSTLABEL: 27, 0.776, Co
##OXINSTLABEL: 27, 0.694, Co
##OXINSTLABEL: 27, 0.678, Co
##OXINSTLABEL: 28, 7.478, Ni
##OXINSTLABEL: 28, 8.265, Ni
##OXINSTLABEL: 28, 0.851, Ni
##OXINSTLABEL: 28, 0.762, Ni
##OXINSTLABEL: 28, 0.743, Ni
##OXINSTLABEL: 29, 8.048, Cu
##OXINSTLABEL: 29, 8.905, Cu
##OXINSTLABEL: 29, 0.930, Cu
##OXINSTLABEL: 29, 0.832, Cu
##OXINSTLABEL: 29, 0.811, Cu
##OXINSTLABEL: 13, 1.487, Al
##OXINSTLABEL: 6, 0.277, C
##OXINSTLABEL: 8, 0.525, O
#SPECTRUM    : Spectral Data Starts Here
-0.20000, 0.0
-0.13000, 0.0
-0.06000, 46.0
0.01000, 1928.0
0.08000, 3406.0
0.15000, 480.0
0.22000, 627.0
0.29000, 980.0
0.36000, 700.0
0.43000, 1189.0
0.50000, 956.0
0.57000, 542.0
0.64000, 391.0
0.71000, 466.0
0.78000, 560.0
0.85000, 560.0
0.92000, 782.0
0.99000, 1381.0
1.06000, 5378.0
1.13000, 7346.0
1.20000, 1835.0
1.27000, 606.0
1.34000, 539.0
1.41000, 575.0
1.48000, 642.0
1.55000, 675.0
1.62000, 714.0
1.69000, 908.0
1.76000, 1050.0
1.83000, 1087.0
1.90000, 1020.0
1.97000, 873.0
2.04000, 946.0
2.11000, 1059.0
2.18000, 1035.0
2.25000, 1042.0
2.32000, 1073.0
2.39000, 1073.0
2.46000, 1074.0
2.53000, 1129.0
2.60000, 1141.0
2.67000, 1108.0
2.74000, 1149.0
2.81000, 1166.0
2.88000, 1224.0
2.95000, 1217.0
3.02000, 1202.0
3.09000, 1359.0
3.16000, 1925.0
3.23000, 1906.0
3.30000, 1375.0
3.37000, 1496.0
3.44000, 2031.0
3.51000, 7155.0
3.58000, 22381.0
3.65000, 20455.0
3.72000, 6305.0
3.79000, 8551.0
3.86000, 14009.0
3.93000, 9124.0
4.00000, 4245.0
4.07000, 4309.0
4.14000, 4020.0
4.21000, 1790.0
4.28000, 1495.0
4.35000, 1994.0
4.42000, 1372.0
4.49000, 947.0
4.56000, 1200.0
4.63000, 1187.0
4.70000, 907.0
4.77000, 732.0
4.84000, 665.0
4.91000, 723.0
4.98000, 664.0
5.05000, 674.0
5.12000, 660.0
5.19000, 673.0
5.26000, 677.0
5.33000, 705.0
5.40000, 669.0
5.47000, 717.0
5.54000, 671.0
5.61000, 675.0
5.68000, 665.0
5.75000, 680.0
5.82000, 671.0
5.89000, 699.0
5.96000, 634.0
6.03000, 639.0
6.10000, 693.0
6.17000, 637.0
6.24000, 682.0
6.31000, 654.0
6.38000, 664.0
6.45000, 637.0
6.52000, 655.0
6.59000, 654.0
6.66000, 628.0
6.73000, 643.0
6.80000, 621.0
6.87000, 595.0
6.94000, 629.0
7.01000, 599.0
7.08000, 614.0
7.15000, 597.0
7.22000, 656.0
7.29000, 615.0
7.36000, 614.0
7.43000, 617.0
7.50000, 634.0
7.57000, 609.0
7.64000, 616.0
7.71000, 595.0
7.78000, 547.0
7.85000, 580.0
7.92000, 559.0
7.99000, 574.0
8.06000, 582.0
8.13000, 564.0
8.20000, 559.0
8.27000, 515.0
8.34000, 558.0
8.41000, 553.0
8.48000, 555.0
8.55000, 515.0
8.62000, 555.0
8.69000, 488.0
8.76000, 493.0
8.83000, 531.0
8.90000, 518.0
8.97000, 539.0
9.04000, 891.0
9.11000, 2828.0
9.18000, 7713.0
9.25000, 10266.0
9.32000, 6333.0
9.39000, 2038.0
9.46000, 654.0
9.53000, 488.0
9.60000, 487.0
9.67000, 468.0
9.74000, 483.0
9.81000, 455.0
9.88000, 503.0
9.95000, 465.0
10.02000, 505.0
10.09000, 620.0
10.16000, 1110.0
10.23000, 1683.0
10.30000, 1701.0
10.37000, 948.0
10.44000, 512.0
10.51000, 398.0
10.58000, 354.0
10.65000, 358.0
10.72000, 363.0
10.79000, 342.0
10.86000, 353.0
10.93000, 365.0
11.00000, 358.0
11.07000, 342.0
11.14000, 343.0
11.21000, 352.0
11.28000, 353.0
11.35000, 339.0
11.42000, 326.0
11.49000, 335.0
11.56000, 321.0
11.63000, 303.0
11.70000, 306.0
11.77000, 327.0
11.84000, 317.0
11.91000, 328.0
11.98000, 297.0
12.05000, 288.0
12.12000, 292.0
12.19000, 280.0
12.26000, 304.0
12.33000, 287.0
12.40000, 297.0
12.47000, 281.0
12.54000, 270.0
12.61000, 288.0
12.68000, 271.0
12.75000, 270.0
12.82000, 294.0
12.89000, 290.0
12.96000, 287.0
13.03000, 282.0
13.10000, 259.0
13.17000, 258.0
13.24000, 250.0
13.31000, 243.0
13.38000, 251.0
13.45000, 237.0
13.52000, 220.0
13.59000, 225.0
13.66000, 244.0
13.73000, 229.0
13.80000, 241.0
13.87000, 235.0
13.94000, 224.0
14.01000, 200.0
14.08000, 203.0
14.15000, 212.0
14.22000, 167.0
14.29000, 189.0
14.36000, 199.0
14.43000, 173.0
14.50000, 184.0
14.57000, 175.0
14.64000, 162.0
14.71000, 178.0
14.78000, 172.0
14.85000, 177.0
14.92000, 184.0
14.99000, 161.0
15.06000, 172.0
15.13000, 153.0
15.20000, 179.0
15.27000, 164.0
15.34000, 157.0
15.41000, 171.0
15.48000, 154.0
15.55000, 151.0
15.62000, 137.0
15.69000, 141.0
15.76000, 150.0
15.83000, 152.0
15.90000, 155.0
15.97000, 134.0
16.04000, 140.0
16.11000, 129.0
16.18000, 141.0
16.25000, 126.0
16.32000, 126.0
16.39000, 117.0
16.46000, 125.0
16.53000, 112.0
16.60000, 132.0
16.67000, 118.0
16.74000, 127.0
16.81000, 139.0
16.88000, 112.0
16.95000, 111.0
17.02000, 109.0
17.09000, 101.0
17.16000, 119.0
17.23000, 100.0
17.30000, 98.0
17.37000, 106.0
17.44000, 96.0
17.51000, 107.0
17.58000, 96.0
17.65000, 89.0
17.72000, 86.0
17.79000, 104.0
17.86000, 76.0
17.93000, 95.0
18.00000, 87.0
18.07000, 81.0
18.14000, 87.0
18.21000, 85.0
18.28000, 84.0
18.35000, 89.0
18.42000, 82.0
18.49000, 74.0
18.56000, 89.0
18.63000, 71.0
18.70000, 81.0
18.77000, 74.0
18.84000, 82.0
18.91000, 65.0
18.98000, 76.0
19.05000, 71.0
19.12000, 61.0
19.19000, 66.0
19.26000, 62.0
19.33000, 65.0
19.40000, 52.0
19.47000, 62.0
19.54000, 60.0
19.61000, 54.0
19.68000, 70.0
19.75000, 50.0
19.82000, 58.0
19.89000, 50.0
19.96000, 48.0
20.03000, 48.0
20.10000, 53.0
20.17000, 46.0
20.24000, 54.0
20.27000, 43.0
#ENDOFDATA   :

File: GaSb_30kV_50pA_processTime2.emsa
#FORMAT      : EMSA/MAS Spectral Data File
#VERSION     : 1.0
#TITLE       : GaSb_30kV_50pA_processTime2
#DATE        : 08-MAR-2023
#TIME        : 15:03
#OWNER       :
#NPOINTS     : 2048.0
#NCOLUMNS    : 1.0
#XUNITS      : keV
#YUNITS      : counts
#DATATYPE    : XY
#XPERCHAN    : 0.01
#OFFSET      : -0.2
#SIGNALTYPE  : EDS
#CHOFFSET    : 20.0
#LIVETIME    : 120.0
#REALTIME    : 128.89
#BEAMKV      : 30.0
#MAGCAM      : 4894.0
#XTILTSTGE   : 0.0
#AZIMANGLE   : 0.0
#ELEVANGLE   : 35.0
#XPOSITION mm: -8.1703
#YPOSITION mm: 1.2743
#ZPOSITION mm: 10.0002
##OXINSTPT   : 2
##OXINSTSTROB: 71.99
##OXINSTNDET : 1
##OXINSTELEMS: 25,26,27,28,29,13,6,8
##OXINSTLABEL: 25, 5.899, Mn
##OXINSTLABEL: 25, 6.490, Mn
##OXINSTLABEL: 25, 0.636, Mn
##OXINSTLABEL: 25, 0.556, Mn
##OXINSTLABEL: 26, 6.404, Fe
##OXINSTLABEL: 26, 7.058, Fe
##OXINSTLABEL: 26, 0.703, Fe
##OXINSTLABEL: 26, 0.615, Fe
##OXINSTLABEL: 27, 6.930, Co
##OXINSTLABEL: 27, 7.650, Co
##OXINSTLABEL: 27, 0.776, Co
##OXINSTLABEL: 27, 0.694, Co
##OXINSTLABEL: 27, 0.678, Co
##OXINSTLABEL: 28, 7.478, Ni
##OXINSTLABEL: 28, 8.265, Ni
##OXINSTLABEL: 28, 0.851, Ni
##OXINSTLABEL: 28, 0.762, Ni
##OXINSTLABEL: 28, 0.743, Ni
##OXINSTLABEL: 29, 8.048, Cu
##OXINSTLABEL: 29, 8.905, Cu
##OXINSTLABEL: 29, 0.930, Cu
##OXINSTLABEL: 29, 0.832, Cu
##OXINSTLABEL: 29, 0.811, Cu
##OXINSTLABEL: 13, 1.487, Al
##OXINSTLABEL: 6, 0.277, C
##OXINSTLABEL: 8, 0.525, O
#SPECTRUM    : Spectral Data Starts Here
-0.20000, 0.0
-0.13000, 0.0
-0.06000, 21.0
0.01000, 2452.0
0.08000, 2977.0
0.15000, 259.0
0.22000, 550.0
0.29000, 979.0
0.36000, 535.0
0.43000, 1287.0
0.50000, 893.0
0.57000, 512.0
0.64000, 371.0
0.71000, 483.0
0.78000, 550.0
0.85000, 493.0
0.92000, 778.0
0.99000, 1125.0
1.06000, 5244.0
1.13000, 8247.0
1.20000, 1272.0
1.27000, 538.0
1.34000, 504.0
1.41000, 583.0
1.48000, 650.0
1.55000, 665.0
1.62000, 687.0
1.69000, 908.0
1.76000, 1082.0
1.83000, 1096.0
1.90000, 1042.0
1.97000, 912.0
2.04000, 945.0
2.11000, 1120.0
2.18000, 1083.0
2.25000, 990.0
2.32000, 1043.0
2.39000, 1119.0
2.46000, 1074.0
2.53000, 1125.0
2.60000, 1114.0
2.67000, 1143.0
2.74000, 1119.0
2.81000, 1164.0
2.88000, 1138.0
2.95000, 1131.0
3.02000, 1196.0
3.09000, 1327.0
3.16000, 1985.0
3.23000, 1931.0
3.30000, 1384.0
3.37000, 1447.0
3.44000, 1855.0
3.51000, 5811.0
3.58000, 24820.0
3.65000, 21047.0
3.72000, 4594.0
3.79000, 8280.0
3.86000, 15569.0
3.93000, 8912.0
4.00000, 3669.0
4.07000, 4559.0
4.14000, 4288.0
4.21000, 1636.0
4.28000, 1440.0
4.35000, 2135.0
4.42000, 1357.0
4.49000, 888.0
4.56000, 1262.0
4.63000, 1217.0
4.70000, 843.0
4.77000, 714.0
4.84000, 696.0
4.91000, 699.0
4.98000, 663.0
5.05000, 639.0
5.12000, 685.0
5.19000, 703.0
5.26000, 692.0
5.33000, 697.0
5.40000, 656.0
5.47000, 672.0
5.54000, 691.0
5.61000, 663.0
5.68000, 666.0
5.75000, 654.0
5.82000, 660.0
5.89000, 685.0
5.96000, 641.0
6.03000, 669.0
6.10000, 665.0
6.17000, 659.0
6.24000, 661.0
6.31000, 641.0
6.38000, 648.0
6.45000, 635.0
6.52000, 641.0
6.59000, 651.0
6.66000, 622.0
6.73000, 620.0
6.80000, 618.0
6.87000, 569.0
6.94000, 643.0
7.01000, 626.0
7.08000, 604.0
7.15000, 606.0
7.22000, 675.0
7.29000, 630.0
7.36000, 576.0
7.43000, 655.0
7.50000, 616.0
7.57000, 598.0
7.64000, 614.0
7.71000, 606.0
7.78000, 587.0
7.85000, 596.0
7.92000, 604.0
7.99000, 596.0
8.06000, 547.0
8.13000, 563.0
8.20000, 530.0
8.27000, 556.0
8.34000, 534.0
8.41000, 555.0
8.48000, 553.0
8.55000, 553.0
8.62000, 526.0
8.69000, 513.0
8.76000, 508.0
8.83000, 512.0
8.90000, 536.0
8.97000, 525.0
9.04000, 777.0
9.11000, 2800.0
9.18000, 8274.0
9.25000, 10940.0
9.32000, 5840.0
9.39000, 1550.0
9.46000, 576.0
9.53000, 513.0
9.60000, 466.0
9.67000, 491.0
9.74000, 484.0
9.81000, 477.0
9.88000, 434.0
9.95000, 454.0
10.02000, 452.0
10.09000, 586.0
10.16000, 1083.0
10.23000, 1802.0
10.30000, 1618.0
10.37000, 824.0
10.44000, 479.0
10.51000, 381.0
10.58000, 348.0
10.65000, 367.0
10.72000, 347.0
10.79000, 377.0
10.86000, 373.0
10.93000, 373.0
11.00000, 379.0
11.07000, 357.0
11.14000, 346.0
11.21000, 350.0
11.28000, 339.0
11.35000, 340.0
11.42000, 324.0
11.49000, 329.0
11.56000, 315.0
11.63000, 317.0
11.70000, 316.0
11.77000, 327.0
11.84000, 304.0
11.91000, 317.0
11.98000, 324.0
12.05000, 305.0
12.12000, 289.0
12.19000, 291.0
12.26000, 283.0
12.33000, 298.0
12.40000, 311.0
12.47000, 284.0
12.54000, 297.0
12.61000, 280.0
12.68000, 279.0
12.75000, 293.0
12.82000, 281.0
12.89000, 253.0
12.96000, 244.0
13.03000, 261.0
13.10000, 268.0
13.17000, 269.0
13.24000, 270.0
13.31000, 245.0
13.38000, 248.0
13.45000, 250.0
13.52000, 229.0
13.59000, 240.0
13.66000, 244.0
13.73000, 225.0
13.80000, 223.0
13.87000, 216.0
13.94000, 206.0
14.01000, 205.0
14.08000, 213.0
14.15000, 234.0
14.22000, 198.0
14.29000, 193.0
14.36000, 207.0
14.43000, 195.0
14.50000, 180.0
14.57000, 196.0
14.64000, 190.0
14.71000, 178.0
14.78000, 172.0
14.85000, 170.0
14.92000, 171.0
14.99000, 177.0
15.06000, 177.0
15.13000, 154.0
15.20000, 174.0
15.27000, 162.0
15.34000, 148.0
15.41000, 150.0
15.48000, 159.0
15.55000, 157.0
15.62000, 147.0
15.69000, 141.0
15.76000, 144.0
15.83000, 139.0
15.90000, 157.0
15.97000, 141.0
16.04000, 135.0
16.11000, 125.0
16.18000, 141.0
16.25000, 115.0
16.32000, 128.0
16.39000, 134.0
16.46000, 116.0
16.53000, 116.0
16.60000, 125.0
16.67000, 134.0
16.74000, 116.0
16.81000, 119.0
16.88000, 115.0
16.95000, 115.0
17.02000, 114.0
17.09000, 100.0
17.16000, 106.0
17.23000, 105.0
17.30000, 107.0
17.37000, 101.0
17.44000, 100.0
17.51000, 91.0
17.58000, 86.0
17.65000, 106.0
17.72000, 111.0
17.79000, 88.0
17.86000, 93.0
17.93000, 94.0
18.00000, 87.0
18.07000, 92.0
18.14000, 83.0
18.21000, 81.0
18.28000, 80.0
18.35000, 85.0
18.42000, 93.0
18.49000, 75.0
18.56000, 81.0
18.63000, 86.0
18.70000, 72.0
18.77000, 84.0
18.84000, 76.0
18.91000, 67.0
18.98000, 68.0
19.05000, 65.0
19.12000, 65.0
19.19000, 63.0
19.26000, 68.0
19.33000, 61.0
19.40000, 62.0
19.47000, 72.0
19.54000, 53.0
19.61000, 59.0
19.68000, 60.0
19.75000, 57.0
19.82000, 52.0
19.89000, 49.0
19.96000, 55.0
20.03000, 61.0
20.10000, 54.0
20.17000, 47.0
20.24000, 47.0
20.27000, 55.0
#ENDOFDATA   :