Folder: eds-sem-bulk-corrections/data/exports

Note: README.md
# Master's thesis - Improving SEM EDS analysis

This is parts of the code developed in my master's thesis.
The code is written in Python 3.7.4 and uses the following libraries, and their dependencies:
- numpy
- pandas
- hyperspy
- plotly
- jupyterlab


This repository is for the exploration of SEM EDS bulk corrections.

One notebook (quant_of_SEM_EDS_with_Cliff-Lorimer.ipynb) is for the Cliff-Lorimer quantification method in HyperSpy, which is based on the thin film approximation (formally incorrect for bulk specimens).
In the CL quantification, absorption corrections is tested.


Another notebook (ZAF_absorption_correction_model.ipynb) is an implementation of a simple ZAF absorption correction.

The main part of this repo is directed towards XPP bulk corrections, which is a simplification of the PAP model.
The XPP corrections are used in AZtec, the EDS software from Oxford Instruments (see: https://www.oxinst.com/blogs/how-to-overcome-challenges-in-publishing-eds-results).


The XPP model is described in (PAP_algorithm.ipynb), and applied to the EDS data.
Plots from the model are given in (PAP_plots.ipynb).
The equations in the model are avaliable in Python files in the folder "PAP_functions".

The EDS data acquired in this work on GaAs and GaSb is avaliable in the folder "data/exports".

File: GaAs_30kV_25pA.emsa
#FORMAT      : EMSA/MAS Spectral Data File
#VERSION     : 1.0
#TITLE       : GaAs_30kV_25pA
#DATE        : 08-MAR-2023
#TIME        : 14:13
#OWNER       :
#NPOINTS     : 2048.0
#NCOLUMNS    : 1.0
#XUNITS      : keV
#YUNITS      : counts
#DATATYPE    : XY
#XPERCHAN    : 0.01
#OFFSET      : -0.2
#SIGNALTYPE  : EDS
#CHOFFSET    : 20.0
#LIVETIME    : 120.0
#REALTIME    : 159.168
#BEAMKV      : 30.0
#MAGCAM      : 9788.0
#XTILTSTGE   : 0.0
#AZIMANGLE   : 0.0
#ELEVANGLE   : 35.0
#XPOSITION mm: -8.2468
#YPOSITION mm: -4.3752
#ZPOSITION mm: 10.0002
##OXINSTPT   : 6
##OXINSTSTROB: 31.49
##OXINSTNDET : 1
##OXINSTELEMS: 25,26,27,28,29,13,6,8
##OXINSTLABEL: 25, 5.899, Mn
##OXINSTLABEL: 25, 6.490, Mn
##OXINSTLABEL: 25, 0.636, Mn
##OXINSTLABEL: 25, 0.556, Mn
##OXINSTLABEL: 26, 6.404, Fe
##OXINSTLABEL: 26, 7.058, Fe
##OXINSTLABEL: 26, 0.703, Fe
##OXINSTLABEL: 26, 0.615, Fe
##OXINSTLABEL: 27, 6.930, Co
##OXINSTLABEL: 27, 7.650, Co
##OXINSTLABEL: 27, 0.776, Co
##OXINSTLABEL: 27, 0.694, Co
##OXINSTLABEL: 27, 0.678, Co
##OXINSTLABEL: 28, 7.478, Ni
##OXINSTLABEL: 28, 8.265, Ni
##OXINSTLABEL: 28, 0.851, Ni
##OXINSTLABEL: 28, 0.762, Ni
##OXINSTLABEL: 28, 0.743, Ni
##OXINSTLABEL: 29, 8.048, Cu
##OXINSTLABEL: 29, 8.905, Cu
##OXINSTLABEL: 29, 0.930, Cu
##OXINSTLABEL: 29, 0.832, Cu
##OXINSTLABEL: 29, 0.811, Cu
##OXINSTLABEL: 13, 1.487, Al
##OXINSTLABEL: 6, 0.277, C
##OXINSTLABEL: 8, 0.525, O
#SPECTRUM    : Spectral Data Starts Here
-0.20000, 0.0
-0.13000, 0.0
-0.06000, 13.0
0.01000, 10776.0
0.08000, 68.0
0.15000, 78.0
0.22000, 118.0
0.29000, 443.0
0.36000, 90.0
0.43000, 123.0
0.50000, 197.0
0.57000, 216.0
0.64000, 283.0
0.71000, 347.0
0.78000, 470.0
0.85000, 603.0
0.92000, 1046.0
0.99000, 1798.0
1.06000, 7752.0
1.13000, 18070.0
1.20000, 856.0
1.27000, 7733.0
1.34000, 4001.0
1.41000, 308.0
1.48000, 185.0
1.55000, 170.0
1.62000, 196.0
1.69000, 216.0
1.76000, 279.0
1.83000, 245.0
1.90000, 226.0
1.97000, 236.0
2.04000, 253.0
2.11000, 299.0
2.18000, 292.0
2.25000, 287.0
2.32000, 286.0
2.39000, 317.0
2.46000, 331.0
2.53000, 345.0
2.60000, 338.0
2.67000, 372.0
2.74000, 347.0
2.81000, 353.0
2.88000, 363.0
2.95000, 382.0
3.02000, 398.0
3.09000, 373.0
3.16000, 384.0
3.23000, 411.0
3.30000, 390.0
3.37000, 397.0
3.44000, 394.0
3.51000, 394.0
3.58000, 403.0
3.65000, 422.0
3.72000, 392.0
3.79000, 384.0
3.86000, 415.0
3.93000, 425.0
4.00000, 396.0
4.07000, 397.0
4.14000, 389.0
4.21000, 384.0
4.28000, 375.0
4.35000, 409.0
4.42000, 381.0
4.49000, 386.0
4.56000, 359.0
4.63000, 373.0
4.70000, 391.0
4.77000, 383.0
4.84000, 375.0
4.91000, 343.0
4.98000, 364.0
5.05000, 365.0
5.12000, 349.0
5.19000, 343.0
5.26000, 353.0
5.33000, 359.0
5.40000, 365.0
5.47000, 324.0
5.54000, 331.0
5.61000, 334.0
5.68000, 311.0
5.75000, 316.0
5.82000, 339.0
5.89000, 317.0
5.96000, 328.0
6.03000, 294.0
6.10000, 293.0
6.17000, 319.0
6.24000, 298.0
6.31000, 297.0
6.38000, 271.0
6.45000, 276.0
6.52000, 293.0
6.59000, 286.0
6.66000, 276.0
6.73000, 274.0
6.80000, 270.0
6.87000, 264.0
6.94000, 269.0
7.01000, 255.0
7.08000, 249.0
7.15000, 252.0
7.22000, 243.0
7.29000, 224.0
7.36000, 224.0
7.43000, 261.0
7.50000, 270.0
7.57000, 269.0
7.64000, 244.0
7.71000, 229.0
7.78000, 226.0
7.85000, 228.0
7.92000, 229.0
7.99000, 229.0
8.06000, 243.0
8.13000, 226.0
8.20000, 197.0
8.27000, 231.0
8.34000, 223.0
8.41000, 213.0
8.48000, 225.0
8.55000, 207.0
8.62000, 216.0
8.69000, 219.0
8.76000, 207.0
8.83000, 212.0
8.90000, 211.0
8.97000, 206.0
9.04000, 325.0
9.11000, 1504.0
9.18000, 5921.0
9.25000, 8573.0
9.32000, 4168.0
9.39000, 820.0
9.46000, 231.0
9.53000, 196.0
9.60000, 177.0
9.67000, 188.0
9.74000, 182.0
9.81000, 189.0
9.88000, 194.0
9.95000, 188.0
10.02000, 195.0
10.09000, 248.0
10.16000, 643.0
10.23000, 1232.0
10.30000, 1197.0
10.37000, 946.0
10.44000, 2528.0
10.51000, 4750.0
10.58000, 3643.0
10.65000, 1131.0
10.72000, 261.0
10.79000, 140.0
10.86000, 125.0
10.93000, 130.0
11.00000, 129.0
11.07000, 133.0
11.14000, 121.0
11.21000, 134.0
11.28000, 123.0
11.35000, 143.0
11.42000, 139.0
11.49000, 151.0
11.56000, 218.0
11.63000, 472.0
11.70000, 763.0
11.77000, 603.0
11.84000, 277.0
11.91000, 148.0
11.98000, 105.0
12.05000, 109.0
12.12000, 99.0
12.19000, 105.0
12.26000, 90.0
12.33000, 92.0
12.40000, 92.0
12.47000, 93.0
12.54000, 96.0
12.61000, 82.0
12.68000, 93.0
12.75000, 100.0
12.82000, 88.0
12.89000, 79.0
12.96000, 84.0
13.03000, 81.0
13.10000, 82.0
13.17000, 85.0
13.24000, 72.0
13.31000, 85.0
13.38000, 77.0
13.45000, 80.0
13.52000, 74.0
13.59000, 71.0
13.66000, 71.0
13.73000, 67.0
13.80000, 70.0
13.87000, 67.0
13.94000, 64.0
14.01000, 63.0
14.08000, 70.0
14.15000, 65.0
14.22000, 66.0
14.29000, 69.0
14.36000, 66.0
14.43000, 66.0
14.50000, 64.0
14.57000, 62.0
14.64000, 61.0
14.71000, 63.0
14.78000, 67.0
14.85000, 58.0
14.92000, 56.0
14.99000, 56.0
15.06000, 56.0
15.13000, 56.0
15.20000, 52.0
15.27000, 53.0
15.34000, 49.0
15.41000, 57.0
15.48000, 47.0
15.55000, 53.0
15.62000, 42.0
15.69000, 52.0
15.76000, 53.0
15.83000, 51.0
15.90000, 44.0
15.97000, 41.0
16.04000, 50.0
16.11000, 40.0
16.18000, 46.0
16.25000, 37.0
16.32000, 37.0
16.39000, 48.0
16.46000, 45.0
16.53000, 45.0
16.60000, 46.0
16.67000, 40.0
16.74000, 44.0
16.81000, 44.0
16.88000, 38.0
16.95000, 41.0
17.02000, 38.0
17.09000, 36.0
17.16000, 42.0
17.23000, 38.0
17.30000, 31.0
17.37000, 33.0
17.44000, 29.0
17.51000, 35.0
17.58000, 36.0
17.65000, 34.0
17.72000, 28.0
17.79000, 34.0
17.86000, 33.0
17.93000, 26.0
18.00000, 31.0
18.07000, 27.0
18.14000, 26.0
18.21000, 21.0
18.28000, 20.0
18.35000, 31.0
18.42000, 24.0
18.49000, 32.0
18.56000, 27.0
18.63000, 29.0
18.70000, 22.0
18.77000, 19.0
18.84000, 24.0
18.91000, 23.0
18.98000, 23.0
19.05000, 22.0
19.12000, 16.0
19.19000, 24.0
19.26000, 21.0
19.33000, 22.0
19.40000, 19.0
19.47000, 17.0
19.54000, 21.0
19.61000, 21.0
19.68000, 21.0
19.75000, 21.0
19.82000, 22.0
19.89000, 18.0
19.96000, 14.0
20.03000, 16.0
20.10000, 17.0
20.17000, 15.0
20.24000, 19.0
20.27000, 21.0
#ENDOFDATA   :

File: GaAs_30kV_50pA.emsa
#FORMAT      : EMSA/MAS Spectral Data File
#VERSION     : 1.0
#TITLE       : GaAs_30kV_50pA
#DATE        : 08-MAR-2023
#TIME        : 14:28
#OWNER       :
#NPOINTS     : 2048.0
#NCOLUMNS    : 1.0
#XUNITS      : keV
#YUNITS      : counts
#DATATYPE    : XY
#XPERCHAN    : 0.01
#OFFSET      : -0.2
#SIGNALTYPE  : EDS
#CHOFFSET    : 20.0
#LIVETIME    : 120.0
#REALTIME    : 213.231
#BEAMKV      : 30.0
#MAGCAM      : 9788.0
#XTILTSTGE   : 0.0
#AZIMANGLE   : 0.0
#ELEVANGLE   : 35.0
#XPOSITION mm: -8.2468
#YPOSITION mm: -4.3752
#ZPOSITION mm: 10.0002
##OXINSTPT   : 6
##OXINSTSTROB: 32.23
##OXINSTNDET : 1
##OXINSTELEMS: 25,26,27,28,29,13,6,8
##OXINSTLABEL: 25, 5.899, Mn
##OXINSTLABEL: 25, 6.490, Mn
##OXINSTLABEL: 25, 0.636, Mn
##OXINSTLABEL: 25, 0.556, Mn
##OXINSTLABEL: 26, 6.404, Fe
##OXINSTLABEL: 26, 7.058, Fe
##OXINSTLABEL: 26, 0.703, Fe
##OXINSTLABEL: 26, 0.615, Fe
##OXINSTLABEL: 27, 6.930, Co
##OXINSTLABEL: 27, 7.650, Co
##OXINSTLABEL: 27, 0.776, Co
##OXINSTLABEL: 27, 0.694, Co
##OXINSTLABEL: 27, 0.678, Co
##OXINSTLABEL: 28, 7.478, Ni
##OXINSTLABEL: 28, 8.265, Ni
##OXINSTLABEL: 28, 0.851, Ni
##OXINSTLABEL: 28, 0.762, Ni
##OXINSTLABEL: 28, 0.743, Ni
##OXINSTLABEL: 29, 8.048, Cu
##OXINSTLABEL: 29, 8.905, Cu
##OXINSTLABEL: 29, 0.930, Cu
##OXINSTLABEL: 29, 0.832, Cu
##OXINSTLABEL: 29, 0.811, Cu
##OXINSTLABEL: 13, 1.487, Al
##OXINSTLABEL: 6, 0.277, C
##OXINSTLABEL: 8, 0.525, O
#SPECTRUM    : Spectral Data Starts Here
-0.20000, 0.0
-0.13000, 0.0
-0.06000, 40.0
0.01000, 10201.0
0.08000, 165.0
0.15000, 178.0
0.22000, 259.0
0.29000, 713.0
0.36000, 193.0
0.43000, 266.0
0.50000, 424.0
0.57000, 433.0
0.64000, 615.0
0.71000, 739.0
0.78000, 974.0
0.85000, 1213.0
0.92000, 2260.0
0.99000, 3854.0
1.06000, 16733.0
1.13000, 38891.0
1.20000, 1802.0
1.27000, 16423.0
1.34000, 8533.0
1.41000, 648.0
1.48000, 373.0
1.55000, 380.0
1.62000, 432.0
1.69000, 442.0
1.76000, 599.0
1.83000, 512.0
1.90000, 526.0
1.97000, 512.0
2.04000, 530.0
2.11000, 603.0
2.18000, 619.0
2.25000, 692.0
2.32000, 672.0
2.39000, 737.0
2.46000, 725.0
2.53000, 704.0
2.60000, 740.0
2.67000, 746.0
2.74000, 714.0
2.81000, 785.0
2.88000, 771.0
2.95000, 790.0
3.02000, 842.0
3.09000, 826.0
3.16000, 847.0
3.23000, 861.0
3.30000, 858.0
3.37000, 855.0
3.44000, 860.0
3.51000, 827.0
3.58000, 900.0
3.65000, 864.0
3.72000, 877.0
3.79000, 893.0
3.86000, 886.0
3.93000, 888.0
4.00000, 845.0
4.07000, 874.0
4.14000, 843.0
4.21000, 823.0
4.28000, 841.0
4.35000, 820.0
4.42000, 811.0
4.49000, 820.0
4.56000, 818.0
4.63000, 804.0
4.70000, 832.0
4.77000, 788.0
4.84000, 802.0
4.91000, 813.0
4.98000, 807.0
5.05000, 756.0
5.12000, 753.0
5.19000, 736.0
5.26000, 773.0
5.33000, 742.0
5.40000, 744.0
5.47000, 716.0
5.54000, 708.0
5.61000, 667.0
5.68000, 677.0
5.75000, 674.0
5.82000, 660.0
5.89000, 685.0
5.96000, 654.0
6.03000, 635.0
6.10000, 647.0
6.17000, 661.0
6.24000, 643.0
6.31000, 632.0
6.38000, 634.0
6.45000, 629.0
6.52000, 610.0
6.59000, 603.0
6.66000, 586.0
6.73000, 566.0
6.80000, 603.0
6.87000, 588.0
6.94000, 582.0
7.01000, 592.0
7.08000, 585.0
7.15000, 558.0
7.22000, 545.0
7.29000, 544.0
7.36000, 543.0
7.43000, 583.0
7.50000, 593.0
7.57000, 514.0
7.64000, 520.0
7.71000, 512.0
7.78000, 502.0
7.85000, 505.0
7.92000, 536.0
7.99000, 495.0
8.06000, 488.0
8.13000, 489.0
8.20000, 454.0
8.27000, 481.0
8.34000, 452.0
8.41000, 457.0
8.48000, 466.0
8.55000, 462.0
8.62000, 466.0
8.69000, 477.0
8.76000, 486.0
8.83000, 462.0
8.90000, 442.0
8.97000, 462.0
9.04000, 725.0
9.11000, 3163.0
9.18000, 12757.0
9.25000, 18267.0
9.32000, 8916.0
9.39000, 1795.0
9.46000, 494.0
9.53000, 429.0
9.60000, 385.0
9.67000, 374.0
9.74000, 409.0
9.81000, 372.0
9.88000, 390.0
9.95000, 396.0
10.02000, 433.0
10.09000, 542.0
10.16000, 1300.0
10.23000, 2659.0
10.30000, 2642.0
10.37000, 2009.0
10.44000, 5502.0
10.51000, 10336.0
10.58000, 7837.0
10.65000, 2480.0
10.72000, 560.0
10.79000, 315.0
10.86000, 299.0
10.93000, 284.0
11.00000, 292.0
11.07000, 276.0
11.14000, 292.0
11.21000, 281.0
11.28000, 282.0
11.35000, 293.0
11.42000, 259.0
11.49000, 311.0
11.56000, 475.0
11.63000, 1025.0
11.70000, 1650.0
11.77000, 1353.0
11.84000, 651.0
11.91000, 331.0
11.98000, 229.0
12.05000, 226.0
12.12000, 224.0
12.19000, 221.0
12.26000, 199.0
12.33000, 216.0
12.40000, 193.0
12.47000, 214.0
12.54000, 183.0
12.61000, 195.0
12.68000, 198.0
12.75000, 191.0
12.82000, 209.0
12.89000, 201.0
12.96000, 196.0
13.03000, 183.0
13.10000, 175.0
13.17000, 186.0
13.24000, 175.0
13.31000, 165.0
13.38000, 169.0
13.45000, 161.0
13.52000, 163.0
13.59000, 167.0
13.66000, 156.0
13.73000, 168.0
13.80000, 160.0
13.87000, 171.0
13.94000, 148.0
14.01000, 159.0
14.08000, 151.0
14.15000, 146.0
14.22000, 152.0
14.29000, 139.0
14.36000, 146.0
14.43000, 132.0
14.50000, 136.0
14.57000, 142.0
14.64000, 142.0
14.71000, 120.0
14.78000, 146.0
14.85000, 133.0
14.92000, 127.0
14.99000, 128.0
15.06000, 129.0
15.13000, 133.0
15.20000, 139.0
15.27000, 121.0
15.34000, 112.0
15.41000, 117.0
15.48000, 123.0
15.55000, 102.0
15.62000, 100.0
15.69000, 112.0
15.76000, 111.0
15.83000, 110.0
15.90000, 102.0
15.97000, 99.0
16.04000, 106.0
16.11000, 99.0
16.18000, 118.0
16.25000, 95.0
16.32000, 101.0
16.39000, 87.0
16.46000, 95.0
16.53000, 105.0
16.60000, 99.0
16.67000, 92.0
16.74000, 82.0
16.81000, 85.0
16.88000, 82.0
16.95000, 77.0
17.02000, 72.0
17.09000, 77.0
17.16000, 80.0
17.23000, 74.0
17.30000, 74.0
17.37000, 69.0
17.44000, 72.0
17.51000, 61.0
17.58000, 59.0
17.65000, 70.0
17.72000, 66.0
17.79000, 70.0
17.86000, 72.0
17.93000, 71.0
18.00000, 58.0
18.07000, 78.0
18.14000, 62.0
18.21000, 58.0
18.28000, 67.0
18.35000, 72.0
18.42000, 74.0
18.49000, 76.0
18.56000, 74.0
18.63000, 53.0
18.70000, 54.0
18.77000, 52.0
18.84000, 41.0
18.91000, 52.0
18.98000, 50.0
19.05000, 55.0
19.12000, 55.0
19.19000, 53.0
19.26000, 53.0
19.33000, 47.0
19.40000, 48.0
19.47000, 53.0
19.54000, 47.0
19.61000, 45.0
19.68000, 57.0
19.75000, 61.0
19.82000, 68.0
19.89000, 53.0
19.96000, 29.0
20.03000, 44.0
20.10000, 35.0
20.17000, 43.0
20.24000, 37.0
20.27000, 32.0
#ENDOFDATA   :

File: GaSb_05kV_50pA.emsa
#FORMAT      : EMSA/MAS Spectral Data File
#VERSION     : 1.0
#TITLE       : GaSb_05kV_50pA
#DATE        : 08-MAR-2023
#TIME        : 14:55
#OWNER       :
#NPOINTS     : 2048.0
#NCOLUMNS    : 1.0
#XUNITS      : keV
#YUNITS      : counts
#DATATYPE    : XY
#XPERCHAN    : 0.01
#OFFSET      : -0.2
#SIGNALTYPE  : EDS
#CHOFFSET    : 20.0
#LIVETIME    : 120.0
#REALTIME    : 124.732
#BEAMKV      : 5.0
#MAGCAM      : 4894.0
#XTILTSTGE   : 0.0
#AZIMANGLE   : 0.0
#ELEVANGLE   : 35.0
#XPOSITION mm: -8.1703
#YPOSITION mm: 1.2743
#ZPOSITION mm: 10.0002
##OXINSTPT   : 6
##OXINSTSTROB: 30.80
##OXINSTNDET : 1
##OXINSTELEMS: 25,26,27,28,29,13,6,8
##OXINSTLABEL: 25, 5.899, Mn
##OXINSTLABEL: 25, 6.490, Mn
##OXINSTLABEL: 25, 0.636, Mn
##OXINSTLABEL: 25, 0.556, Mn
##OXINSTLABEL: 26, 6.404, Fe
##OXINSTLABEL: 26, 7.058, Fe
##OXINSTLABEL: 26, 0.703, Fe
##OXINSTLABEL: 26, 0.615, Fe
##OXINSTLABEL: 27, 6.930, Co
##OXINSTLABEL: 27, 7.650, Co
##OXINSTLABEL: 27, 0.776, Co
##OXINSTLABEL: 27, 0.694, Co
##OXINSTLABEL: 27, 0.678, Co
##OXINSTLABEL: 28, 7.478, Ni
##OXINSTLABEL: 28, 8.265, Ni
##OXINSTLABEL: 28, 0.851, Ni
##OXINSTLABEL: 28, 0.762, Ni
##OXINSTLABEL: 28, 0.743, Ni
##OXINSTLABEL: 29, 8.048, Cu
##OXINSTLABEL: 29, 8.905, Cu
##OXINSTLABEL: 29, 0.930, Cu
##OXINSTLABEL: 29, 0.832, Cu
##OXINSTLABEL: 29, 0.811, Cu
##OXINSTLABEL: 13, 1.487, Al
##OXINSTLABEL: 6, 0.277, C
##OXINSTLABEL: 8, 0.525, O
#SPECTRUM    : Spectral Data Starts Here
-0.20000, 0.0
-0.13000, 0.0
-0.06000, 2.0
0.01000, 10925.0
0.08000, 52.0
0.15000, 179.0
0.22000, 291.0
0.29000, 421.0
0.36000, 195.0
0.43000, 769.0
0.50000, 462.0
0.57000, 210.0
0.64000, 198.0
0.71000, 272.0
0.78000, 247.0
0.85000, 232.0
0.92000, 272.0
0.99000, 336.0
1.06000, 1003.0
1.13000, 2482.0
1.20000, 263.0
1.27000, 190.0
1.34000, 156.0
1.41000, 170.0
1.48000, 181.0
1.55000, 163.0
1.62000, 156.0
1.69000, 149.0
1.76000, 151.0
1.83000, 134.0
1.90000, 110.0
1.97000, 98.0
2.04000, 99.0
2.11000, 107.0
2.18000, 107.0
2.25000, 106.0
2.32000, 95.0
2.39000, 79.0
2.46000, 88.0
2.53000, 76.0
2.60000, 93.0
2.67000, 80.0
2.74000, 61.0
2.81000, 69.0
2.88000, 59.0
2.95000, 56.0
3.02000, 62.0
3.09000, 60.0
3.16000, 58.0
3.23000, 54.0
3.30000, 51.0
3.37000, 45.0
3.44000, 51.0
3.51000, 43.0
3.58000, 111.0
3.65000, 92.0
3.72000, 51.0
3.79000, 48.0
3.86000, 55.0
3.93000, 39.0
4.00000, 29.0
4.07000, 27.0
4.14000, 28.0
4.21000, 19.0
4.28000, 17.0
4.35000, 22.0
4.42000, 17.0
4.49000, 11.0
4.56000, 11.0
4.63000, 13.0
4.70000, 10.0
4.77000, 5.0
4.84000, 3.0
4.91000, 2.0
4.98000, 1.0
5.05000, 0.0
5.12000, 0.0
5.19000, 0.0
5.26000, 0.0
5.33000, 0.0
5.40000, 0.0
5.47000, 0.0
5.54000, 0.0
5.61000, 0.0
5.68000, 0.0
5.75000, 0.0
5.82000, 0.0
5.89000, 0.0
5.96000, 0.0
6.03000, 0.0
6.10000, 0.0
6.17000, 0.0
6.24000, 0.0
6.31000, 0.0
6.38000, 0.0
6.45000, 0.0
6.52000, 0.0
6.59000, 0.0
6.66000, 0.0
6.73000, 0.0
6.80000, 0.0
6.87000, 0.0
6.94000, 0.0
7.01000, 0.0
7.08000, 0.0
7.15000, 0.0
7.22000, 0.0
7.29000, 0.0
7.36000, 0.0
7.43000, 0.0
7.50000, 0.0
7.57000, 0.0
7.64000, 0.0
7.71000, 0.0
7.78000, 0.0
7.85000, 0.0
7.92000, 0.0
7.99000, 0.0
8.06000, 0.0
8.13000, 0.0
8.20000, 0.0
8.27000, 0.0
8.34000, 0.0
8.41000, 0.0
8.48000, 0.0
8.55000, 0.0
8.62000, 0.0
8.69000, 0.0
8.76000, 0.0
8.83000, 0.0
8.90000, 0.0
8.97000, 0.0
9.04000, 0.0
9.11000, 0.0
9.18000, 0.0
9.25000, 0.0
9.32000, 0.0
9.39000, 0.0
9.46000, 0.0
9.53000, 0.0
9.60000, 0.0
9.67000, 0.0
9.74000, 0.0
9.81000, 0.0
9.88000, 0.0
9.95000, 0.0
10.02000, 0.0
10.09000, 0.0
10.16000, 0.0
10.23000, 0.0
10.30000, 0.0
10.37000, 0.0
10.44000, 0.0
10.51000, 0.0
10.58000, 0.0
10.65000, 0.0
10.72000, 0.0
10.79000, 0.0
10.86000, 0.0
10.93000, 0.0
11.00000, 0.0
11.07000, 0.0
11.14000, 0.0
11.21000, 0.0
11.28000, 0.0
11.35000, 0.0
11.42000, 0.0
11.49000, 0.0
11.56000, 0.0
11.63000, 0.0
11.70000, 0.0
11.77000, 0.0
11.84000, 0.0
11.91000, 0.0
11.98000, 0.0
12.05000, 0.0
12.12000, 0.0
12.19000, 0.0
12.26000, 0.0
12.33000, 0.0
12.40000, 0.0
12.47000, 0.0
12.54000, 0.0
12.61000, 0.0
12.68000, 0.0
12.75000, 0.0
12.82000, 0.0
12.89000, 0.0
12.96000, 0.0
13.03000, 0.0
13.10000, 0.0
13.17000, 0.0
13.24000, 0.0
13.31000, 0.0
13.38000, 0.0
13.45000, 0.0
13.52000, 0.0
13.59000, 0.0
13.66000, 0.0
13.73000, 0.0
13.80000, 0.0
13.87000, 0.0
13.94000, 0.0
14.01000, 0.0
14.08000, 0.0
14.15000, 0.0
14.22000, 0.0
14.29000, 0.0
14.36000, 0.0
14.43000, 0.0
14.50000, 0.0
14.57000, 0.0
14.64000, 0.0
14.71000, 0.0
14.78000, 0.0
14.85000, 0.0
14.92000, 0.0
14.99000, 0.0
15.06000, 0.0
15.13000, 0.0
15.20000, 0.0
15.27000, 0.0
15.34000, 0.0
15.41000, 0.0
15.48000, 0.0
15.55000, 0.0
15.62000, 0.0
15.69000, 0.0
15.76000, 0.0
15.83000, 0.0
15.90000, 0.0
15.97000, 0.0
16.04000, 0.0
16.11000, 0.0
16.18000, 0.0
16.25000, 0.0
16.32000, 0.0
16.39000, 0.0
16.46000, 0.0
16.53000, 0.0
16.60000, 0.0
16.67000, 0.0
16.74000, 0.0
16.81000, 0.0
16.88000, 0.0
16.95000, 0.0
17.02000, 0.0
17.09000, 0.0
17.16000, 0.0
17.23000, 0.0
17.30000, 0.0
17.37000, 0.0
17.44000, 0.0
17.51000, 0.0
17.58000, 0.0
17.65000, 0.0
17.72000, 0.0
17.79000, 0.0
17.86000, 0.0
17.93000, 0.0
18.00000, 0.0
18.07000, 0.0
18.14000, 0.0
18.21000, 0.0
18.28000, 0.0
18.35000, 0.0
18.42000, 0.0
18.49000, 0.0
18.56000, 0.0
18.63000, 0.0
18.70000, 0.0
18.77000, 0.0
18.84000, 0.0
18.91000, 0.0
18.98000, 0.0
19.05000, 0.0
19.12000, 0.0
19.19000, 0.0
19.26000, 0.0
19.33000, 0.0
19.40000, 0.0
19.47000, 0.0
19.54000, 0.0
19.61000, 0.0
19.68000, 0.0
19.75000, 0.0
19.82000, 0.0
19.89000, 0.0
19.96000, 0.0
20.03000, 0.0
20.10000, 0.0
20.17000, 0.0
20.24000, 0.0
20.27000, 0.0
#ENDOFDATA   :

File: GaSb_15kV_200pA.emsa
#FORMAT      : EMSA/MAS Spectral Data File
#VERSION     : 1.0
#TITLE       : GaSb_15kV_200pA_processTime6
#DATE        : 08-MAR-2023
#TIME        : 15:45
#OWNER       :
#NPOINTS     : 2048.0
#NCOLUMNS    : 1.0
#XUNITS      : keV
#YUNITS      : counts
#DATATYPE    : XY
#XPERCHAN    : 0.01
#OFFSET      : -0.2
#SIGNALTYPE  : EDS
#CHOFFSET    : 20.0
#LIVETIME    : 61.9191
#REALTIME    : 130.952
#BEAMKV      : 15.0
#MAGCAM      : 4894.0
#XTILTSTGE   : 0.0
#AZIMANGLE   : 0.0
#ELEVANGLE   : 35.0
#XPOSITION mm: -7.7878
#YPOSITION mm: 1.3232
#ZPOSITION mm: 10.0002
##OXINSTPT   : 6
##OXINSTSTROB: 31.87
##OXINSTNDET : 1
##OXINSTELEMS: 31,51
##OXINSTLABEL: 31, 9.252, Ga
##OXINSTLABEL: 31, 10.264, Ga
##OXINSTLABEL: 31, 1.098, Ga
##OXINSTLABEL: 31, 0.984, Ga
##OXINSTLABEL: 31, 0.957, Ga
##OXINSTLABEL: 51, 3.605, Sb
##OXINSTLABEL: 51, 3.844, Sb
##OXINSTLABEL: 51, 4.101, Sb
##OXINSTLABEL: 51, 3.437, Sb
##OXINSTLABEL: 51, 4.348, Sb
##OXINSTLABEL: 51, 4.600, Sb
##OXINSTLABEL: 51, 3.189, Sb
##OXINSTLABEL: 51, 0.429, Sb
#SPECTRUM    : Spectral Data Starts Here
-0.20000, 0.0
-0.13000, 0.0
-0.06000, 12.0
0.01000, 5130.0
0.08000, 153.0
0.15000, 470.0
0.22000, 822.0
0.29000, 1351.0
0.36000, 760.0
0.43000, 3723.0
0.50000, 1912.0
0.57000, 860.0
0.64000, 798.0
0.71000, 1071.0
0.78000, 1221.0
0.85000, 1117.0
0.92000, 1443.0
0.99000, 2166.0
1.06000, 7598.0
1.13000, 19017.0
1.20000, 1602.0
1.27000, 1100.0
1.34000, 1043.0
1.41000, 1089.0
1.48000, 1182.0
1.55000, 1138.0
1.62000, 1187.0
1.69000, 1239.0
1.76000, 1494.0
1.83000, 1440.0
1.90000, 1354.0
1.97000, 1241.0
2.04000, 1273.0
2.11000, 1355.0
2.18000, 1290.0
2.25000, 1237.0
2.32000, 1216.0
2.39000, 1247.0
2.46000, 1186.0
2.53000, 1242.0
2.60000, 1208.0
2.67000, 1205.0
2.74000, 1159.0
2.81000, 1120.0
2.88000, 1130.0
2.95000, 1121.0
3.02000, 1086.0
3.09000, 1081.0
3.16000, 1531.0
3.23000, 1558.0
3.30000, 1035.0
3.37000, 1099.0
3.44000, 1350.0
3.51000, 2531.0
3.58000, 15650.0
3.65000, 13012.0
3.72000, 1863.0
3.79000, 4137.0
3.86000, 9508.0
3.93000, 4580.0
4.00000, 1851.0
4.07000, 2596.0
4.14000, 2665.0
4.21000, 1005.0
4.28000, 980.0
4.35000, 1533.0
4.42000, 945.0
4.49000, 696.0
4.56000, 936.0
4.63000, 947.0
4.70000, 705.0
4.77000, 652.0
4.84000, 571.0
4.91000, 574.0
4.98000, 577.0
5.05000, 565.0
5.12000, 560.0
5.19000, 577.0
5.26000, 520.0
5.33000, 526.0
5.40000, 514.0
5.47000, 481.0
5.54000, 510.0
5.61000, 508.0
5.68000, 477.0
5.75000, 492.0
5.82000, 472.0
5.89000, 474.0
5.96000, 466.0
6.03000, 453.0
6.10000, 466.0
6.17000, 440.0
6.24000, 452.0
6.31000, 461.0
6.38000, 438.0
6.45000, 404.0
6.52000, 410.0
6.59000, 397.0
6.66000, 404.0
6.73000, 390.0
6.80000, 406.0
6.87000, 386.0
6.94000, 379.0
7.01000, 387.0
7.08000, 360.0
7.15000, 384.0
7.22000, 366.0
7.29000, 362.0
7.36000, 329.0
7.43000, 356.0
7.50000, 338.0
7.57000, 342.0
7.64000, 335.0
7.71000, 318.0
7.78000, 324.0
7.85000, 311.0
7.92000, 319.0
7.99000, 318.0
8.06000, 307.0
8.13000, 293.0
8.20000, 295.0
8.27000, 282.0
8.34000, 284.0
8.41000, 264.0
8.48000, 261.0
8.55000, 281.0
8.62000, 263.0
8.69000, 259.0
8.76000, 267.0
8.83000, 259.0
8.90000, 244.0
8.97000, 246.0
9.04000, 276.0
9.11000, 489.0
9.18000, 1385.0
9.25000, 1944.0
9.32000, 989.0
9.39000, 359.0
9.46000, 218.0
9.53000, 211.0
9.60000, 217.0
9.67000, 187.0
9.74000, 171.0
9.81000, 176.0
9.88000, 202.0
9.95000, 189.0
10.02000, 179.0
10.09000, 192.0
10.16000, 283.0
10.23000, 380.0
10.30000, 361.0
10.37000, 226.0
10.44000, 169.0
10.51000, 153.0
10.58000, 141.0
10.65000, 152.0
10.72000, 140.0
10.79000, 126.0
10.86000, 128.0
10.93000, 136.0
11.00000, 151.0
11.07000, 122.0
11.14000, 120.0
11.21000, 138.0
11.28000, 119.0
11.35000, 109.0
11.42000, 104.0
11.49000, 112.0
11.56000, 103.0
11.63000, 101.0
11.70000, 97.0
11.77000, 104.0
11.84000, 88.0
11.91000, 99.0
11.98000, 104.0
12.05000, 87.0
12.12000, 78.0
12.19000, 86.0
12.26000, 77.0
12.33000, 75.0
12.40000, 80.0
12.47000, 77.0
12.54000, 70.0
12.61000, 61.0
12.68000, 78.0
12.75000, 63.0
12.82000, 69.0
12.89000, 65.0
12.96000, 59.0
13.03000, 63.0
13.10000, 63.0
13.17000, 46.0
13.24000, 51.0
13.31000, 48.0
13.38000, 57.0
13.45000, 40.0
13.52000, 41.0
13.59000, 36.0
13.66000, 35.0
13.73000, 35.0
13.80000, 30.0
13.87000, 36.0
13.94000, 39.0
14.01000, 25.0
14.08000, 24.0
14.15000, 27.0
14.22000, 22.0
14.29000, 23.0
14.36000, 15.0
14.43000, 14.0
14.50000, 22.0
14.57000, 12.0
14.64000, 7.0
14.71000, 11.0
14.78000, 8.0
14.85000, 8.0
14.92000, 6.0
14.99000, 5.0
15.06000, 2.0
15.13000, 2.0
15.20000, 3.0
15.27000, 2.0
15.34000, 2.0
15.41000, 1.0
15.48000, 1.0
15.55000, 0.0
15.62000, 2.0
15.69000, 5.0
15.76000, 1.0
15.83000, 2.0
15.90000, 3.0
15.97000, 3.0
16.04000, 1.0
16.11000, 1.0
16.18000, 1.0
16.25000, 0.0
16.32000, 1.0
16.39000, 2.0
16.46000, 2.0
16.53000, 1.0
16.60000, 2.0
16.67000, 1.0
16.74000, 0.0
16.81000, 0.0
16.88000, 3.0
16.95000, 1.0
17.02000, 1.0
17.09000, 1.0
17.16000, 1.0
17.23000, 0.0
17.30000, 1.0
17.37000, 0.0
17.44000, 0.0
17.51000, 2.0
17.58000, 1.0
17.65000, 0.0
17.72000, 2.0
17.79000, 0.0
17.86000, 0.0
17.93000, 1.0
18.00000, 0.0
18.07000, 0.0
18.14000, 1.0
18.21000, 0.0
18.28000, 1.0
18.35000, 2.0
18.42000, 1.0
18.49000, 1.0
18.56000, 1.0
18.63000, 0.0
18.70000, 0.0
18.77000, 1.0
18.84000, 0.0
18.91000, 0.0
18.98000, 0.0
19.05000, 0.0
19.12000, 1.0
19.19000, 1.0
19.26000, 0.0
19.33000, 1.0
19.40000, 1.0
19.47000, 0.0
19.54000, 0.0
19.61000, 0.0
19.68000, 0.0
19.75000, 0.0
19.82000, 0.0
19.89000, 0.0
19.96000, 0.0
20.03000, 0.0
20.10000, 1.0
20.17000, 1.0
20.24000, 0.0
20.27000, 0.0
#ENDOFDATA   :